Folder: cee-492-term-project-fall-2022-team-online/reference/Ray

Note: reference/Ray/NTable.md
| With Blast Furnace Slag | With Fly Ash | With Superplasticizer | Observations |
|-------------------------|--------------|-----------------------|--------------|
|                   false |        false |                 false |          209 |
|                   false |        false |                  true |           23 |
|                   false |         true |                 false |            6 |
|                   false |         true |                  true |          233 |
|                    true |        false |                 false |          164 |
|                    true |        false |                  true |          170 |
|                    true |         true |                  true |          225 |

Note: reference/Ray/StatTable.md
|         variable |    mean |     std |   min |     q25 | median |    q75 |    max |
|------------------|---------|---------|-------|---------|--------|--------|--------|
|           Cement | 281.168 | 104.506 | 102.0 | 192.375 |  272.9 |  350.0 |  540.0 |
| BlastFurnaceSlag | 73.8958 | 86.2793 |   0.0 |     0.0 |   22.0 | 142.95 |  359.4 |
|           FlyAsh | 54.1883 |  63.997 |   0.0 |     0.0 |    0.0 |  118.3 |  200.1 |
|            Water | 181.567 | 21.3542 | 121.8 |   164.9 |  185.0 |  192.0 |  247.0 |
| Superplasticizer | 6.20466 | 5.97384 |   0.0 |     0.0 |    6.4 |   10.2 |   32.2 |
|  CoarseAggregate | 972.919 |  77.754 | 801.0 |   932.0 |  968.0 | 1029.4 | 1145.0 |
|    FineAggregate |  773.58 |  80.176 | 594.0 |  730.95 |  779.5 |  824.0 |  992.6 |
|              Age | 45.6621 | 63.1699 |     1 |     7.0 |   28.0 |   56.0 |    365 |
|         Strength |  35.818 | 16.7057 |  2.33 |   23.71 | 34.445 | 46.135 |   82.6 |

File: Concrete_Data_RA.csv
Cement (kg/m³),Water (kg/m³),Coarse Aggregate (kg/m³),Fine Aggregate (kg/m³),Blast Furnace Slag (kg/m³),Fly Ash (kg/m³),Superplasticizer (kg/m³),Age (day),Compressive strength (MPa)
540,162,1040,676,0,0,2.5,28,79.99
266,228,932,670,114,0,0,90,47.03
198.6,192,978.4,825.5,132.4,0,0,90,38.07
380,228,932,670,0,0,0,90,52.91
427.5,228,932,594,47.5,0,0,180,41.84
380,228,932,670,0,0,0,270,53.3
304,228,932,670,76,0,0,365,55.26
237.5,228,932,594,237.5,0,0,270,38.41
342,228,932,670,38,0,0,90,50.46
427.5,228,932,594,47.5,0,0,7,35.08
332.5,228,932,594,142.5,0,0,180,39.78
198.6,192,978.4,825.5,132.4,0,0,7,14.64
304,228,932,670,76,0,0,270,54.38
342,228,932,670,38,0,0,270,55.06
374,170.1,926.1,756.7,189.2,0,10.1,3,34.4
475,181.1,852.1,781.5,118.8,0,8.9,3,37.8
425,153.5,852.1,887.1,106.3,0,16.5,3,33.4
379.5,153.9,1134.3,605,151.2,0,15.9,3,28.6
389.9,145.9,944.7,755.8,189,0,22,3,40.6
425,153.5,852.1,887.1,106.3,0,16.5,7,49.2
425,153.5,852.1,887.1,106.3,0,16.5,7,49.2
401.8,147.4,946.8,852.1,94.7,0,11.4,7,54.1
286.3,144.7,1004.6,803.7,200.9,0,11.2,7,38
337.9,174.9,944.7,755.8,189,0,9.5,7,35.1
375,126.6,852.1,992.6,93.8,0,23.4,28,56.7
531.3,141.8,852.1,893.7,0,0,28.2,28,56.4
323.7,183.8,942.7,659.9,282.8,0,10.3,28,74.7
439,186,884.9,707.9,177,0,11.1,28,66
313.3,175.5,1046.9,611.8,262.2,0,8.6,56,64.9
469,137.8,852.1,840.5,117.2,0,32.2,56,69.3
318.8,155.7,852.1,880.4,212.5,0,14.3,56,66.1
362.6,164.9,944.7,755.8,189,0,11.6,56,77.3
362.6,164.9,944.7,755.8,189,0,11.6,56,77.3
425,151.4,936,803.7,106.3,0,18.6,91,66.7
388.6,157.9,852.1,925.7,97.1,0,12.1,91,57.6
362.6,164.9,944.7,755.8,189,0,11.6,91,79.3
439,186,884.9,707.9,177,0,11.1,91,73.3
222.4,189.3,967.1,870.3,0,96.7,4.5,14,24.45
233.8,197.9,947,852.2,0,94.6,4.6,14,22.14
194.7,165.6,1006.4,905.9,0,100.5,7.5,14,24.99
190.7,162.1,1090,804,0,125.4,7.8,14,21.06
212.1,180.3,1057.6,779.3,0,121.6,5.7,14,20.92
230,195.5,1029.4,758.6,0,118.3,4.6,14,20.08
190.3,161.9,1088.1,802.6,0,125.2,9.9,14,22.72
166.1,176.5,1058.6,780.1,0,163.3,4.5,14,25.48
168,121.8,1058.7,780.1,42.1,163.8,5.7,14,17.82
213.7,181.7,1065.8,785.4,98.1,24.5,6.9,14,30.39
213.8,181.7,1066,785.5,98.1,24.5,6.7,14,17.84
229.7,195.2,1028.1,757.6,0,118.2,6.1,14,22.32
238.1,186.7,949.9,847,0,94.1,7,14,25.69
250,187.4,956.9,861.2,0,95.7,5.5,14,24.92
212.5,159.3,1007.8,903.6,0,100.4,8.7,14,26.31
212.6,159.4,1003.8,903.8,0,100.4,10.4,14,25.37
212,159,1085.4,799.5,0,124.8,7.8,14,31.35
231.8,174,1056.4,778.5,0,121.6,6.7,14,26.77
251.4,188.5,1028.4,757.7,0,118.3,5.8,14,29.93
251.4,188.5,1028.4,757.7,0,118.3,6.4,14,24.43
181.4,169.6,1055.6,777.8,0,167,7.6,14,21.6
182,170.2,1059.4,780.7,45.2,122,8.2,14,21.5
168.9,158.3,1080.8,796.2,42.2,124.3,10.8,14,23.51
290.4,168.1,961.2,865,0,96.2,9.4,14,34.67
277.1,160.6,973.9,875.6,0,97.4,11.8,14,41.89
295.7,171.5,955.1,859.2,0,95.6,8.9,14,35.23
251.8,146.1,1006,899.8,0,99.9,12.4,14,33.36
249.1,158.1,987.8,889,0,98.8,12.8,14,28.68
252.3,146.3,987.8,889,0,98.8,14.2,14,42.29
246.8,143.3,1086.8,800.9,0,125.1,12,14,42.22
275.1,159.5,1053.6,777.5,0,121.4,9.9,14,38.77
297.2,174.8,1022.8,753.5,0,117.5,9.5,14,36.99
213.7,154.8,1053.5,776.4,0,174.7,10.2,14,33.73
213.5,154.6,1052.3,775.5,0,174.2,11.7,14,33.7
277.2,160.7,1061.7,782.5,97.8,24.5,11.2,14,47.71
218.2,140.8,1075.7,792.7,54.6,123.8,11.9,14,35.96
214.9,155.6,1014.3,780.6,53.8,121.9,9.6,14,38.6
218.9,158.5,1078.7,794.9,0,124.1,11.3,14,26.05
376,214.6,1003.5,762.4,0,0,0,14,25.62
475,142,1098,641,0,59,1.9,28,57.23
520,170,855,855,0,0,5.2,28,60.28
450.1,200,1124.4,613.2,50,0,3,28,39.38
200,190,1145,660,200,0,0,28,49.25
250,159,860,800,180,95,9.5,28,67.87
500,151,1033,655,0,0,9,28,69.84
172.4,156.8,1006.3,856.4,13.6,172.4,4.1,3,21.29
250,191.8,948.9,857.2,0,95.7,5.3,3,8.49
165,175.1,1005.8,746.6,128.5,132.1,8.1,14,33.09
167,164,1007.3,770.1,75.4,167,7.9,14,32.9
194.7,170.2,998,901.8,0,100.5,7.5,14,24.28
167.4,175.5,1006.3,746.6,129.9,128.6,7.8,28,41.2
190.3,166.6,1079,798.9,0,125.2,9.9,28,24.85
165,163.8,1005.6,900.9,0,143.6,0,56,36.56
173.5,164.8,1006.2,793.5,50.1,173.5,6.5,56,53.77
213.5,159.2,1043.6,771.9,0,174.2,11.7,56,51.26
178,179.9,1007.3,746.8,129.8,118.6,3.6,100,49.99
173.8,172.3,1007.2,746.6,93.4,159.9,9.7,100,50.94
251.4,192.9,1043.6,754.3,0,118.3,5.8,100,40.15
446,162,967,712,24,79,11.6,3,35.36
446,162,967,712,24,79,11.6,7,39.3
387,157,938,845,20,94,14.3,28,50.24
387,157,938,845,20,94,11.6,3,34.77
387,157,938,845,20,94,13.9,56,47.97
491,201,822,699,26,123,3.9,28,57.92
491,201,822,699,26,123,3.9,7,37.92
424,178,822,750,22,132,8.5,7,39
202,206,942,801,11,141,1.7,28,21.97
284,179,842,801,15,141,5.5,3,13.4
359,154,942,801,19,141,10.9,3,25.12
359,154,942,801,19,141,10.9,56,66.78
393,192,940.6,785.6,0,0,0,90,48.85
480,192,936.2,712.2,0,0,0,3,24.4
255,192,889.8,945,0,0,0,28,18.75
393,192,940.6,785.6,0,0,0,7,27.74
181.9,185.7,1012.4,714.3,272.8,0,0,28,27.94
220.8,185.7,1055,744.3,147.2,0,0,28,25.75
295.8,185.7,1091.4,769.3,0,0,0,7,14.84
295.8,185.7,1091.4,769.3,0,0,0,28,25.22
238.1,185.7,1118.8,789.3,0,0,0,28,17.58
290.2,185.7,998.2,704.3,193.5,0,0,7,21.86
290.2,185.7,998.2,704.3,193.5,0,0,28,33.04
238.1,185.7,1118.8,789.3,0,0,0,7,10.34
186.2,185.7,1083.4,764.3,124.1,0,0,28,17.6
339,197,968,781,0,0,0,14,27.04
236,194,968,885,0,0,0,3,6.47
236,193,968,885,0,0,0,365,25.08
277,191,968,856,0,0,0,180,32.33
254,198,968,863,0,0,0,365,29.79
307,193,968,812,0,0,0,90,32.92
225,181,1113,833,0,0,0,28,17.34
300,184,1075,795,0,0,0,7,15.58
400,187,1025,745,0,0,0,7,30.14
203.5,203.5,963.4,630,305.3,0,0,7,19.54
122.6,203.5,958.2,800.1,183.9,0,0,90,33.19
166.8,203.5,975.6,692.6,250.2,0,0,28,33.95
116,192,909.8,891.9,173,0,0,90,31.02
173,192,946.8,856.8,116,0,0,7,11.39
305.3,203.5,965.4,631,203.5,0,0,28,43.38
183.9,203.5,959.2,800,122.6,0,0,90,32.53
102,192,887,942,153,0,0,28,17.28
133,192,927.4,839.2,200,0,0,7,13.66
288,192,932,717.8,192,0,0,7,23.52
116,192,909.8,891.9,173,0,0,28,22.35
133,192,927.4,839.2,200,0,0,3,6.88
122.6,203.5,958.2,800.1,183.9,0,0,3,3.32
250.2,203.5,977.6,694.1,166.8,0,0,28,36.96
141.3,203.5,971.8,748.5,212,0,0,90,39.66
203.5,203.5,963.4,630,305.3,0,0,90,51.86
310,192,1012,830,0,0,0,120,38.7
331,192,1025,821,0,0,0,120,39.38
349,192,1056,809,0,0,0,120,40.86
297,186,1040,734,0,0,0,7,30.96
281,185,1104,774,0,0,0,28,22.44
500,200,1125,613,0,0,0,28,44.09
540,173,1125,613,0,0,0,180,71.62
350,203,974,775,0,0,0,56,29.98
385,186,966,763,0,0,0,7,23.22
349,192,1047,806,0,0,0,3,14.99
281,186,1104,774,0,0,0,28,22.44
238,185,1118,789,0,0,0,28,17.54
331,192,978,825,0,0,0,7,16.26
349,192,1047,806,0,0,0,90,39.49
525,189,1125,613,0,0,0,180,61.92
252,185,1111,784,0,0,0,7,13.71
393,192,940,758,0,0,0,90,48.79
310,192,970,850,0,0,0,7,14.99
525,189,1125,613,0,0,0,3,33.8
525,189,1125,613,0,0,0,270,67.11
397,185,1040,734,0,0,0,28,39.09
162,179,838,741,190,148,19,28,33.76
144,158,943,844,0,175,18,28,15.42
310,168,914,804,143,0,10,28,45.3
321,190,870,774,164,0,5,28,57.21
156,180,1022,698,243,0,11,28,37.36
326,174,882,790,166,0,9,28,61.23
314,170,925,783,0,113,10,28,38.46
265,195,833,790,111,86,6,28,41.54
149,193,892,780,139,109,6,28,23.69
155,193,1047,697,183,0,9,28,18.28
152,184,992,816,0,112,8,28,12.18
153,178,867,824,145,113,8,28,26.23
158,220,898,713,0,195,11,28,8.54
260,171,936,763,101,78,10,28,49.77
150,174,1069,675,237,0,12,28,37.43
135,180,961,805,0,166,10,28,13.29
144,178,941,774,136,106,7,28,26.14
155,194,880,699,184,143,9,28,28.99
136,172,923,764,162,126,10,28,29.07
164,197,961,641,163,128,8,28,27.23
159,201,848,669,209,161,7,28,30.88
156,221,854,614,178,187,7,28,29.41
296,221.4,819.2,778.4,0,106.7,10.5,28,31.42
139.9,200.3,916,753.4,132.6,103.3,7.4,28,36.44
326.5,199,801.1,792.5,0,137.9,10.8,28,38.63
272.6,198.7,931.3,762.2,0,89.6,10.6,28,32.25
284,168.3,970.4,794.2,119.7,0,7.2,28,40.93
330.5,194.9,811,802.3,169.6,0,8.1,28,56.62
314,178.9,869.1,690.2,145.3,113.2,8,28,46.23
277,190.6,946.5,665.6,116.8,91,7,28,43.58
147.8,171.2,1000,828.5,175.1,0,2.2,28,26.92
255.3,188.6,919,749.3,98.8,77,6.5,28,33.8
151.8,167.5,944,694.6,178.1,138.7,18.3,28,36.35
158.6,175.1,953.3,719.7,148.9,116,15,28,27.68
141.9,173.5,882.6,785.3,166.6,129.7,10.9,28,44.61
252.1,193.8,835.5,821.4,97.1,75.6,8.3,28,33.4
317.9,209.7,860.5,736.6,0,126.5,5.7,28,40.06
322.5,185.8,951,709.5,148.6,0,8.5,28,52.43
288.4,177.4,907.9,829.5,121,0,7,28,42.14
276.4,179.6,870.1,768.3,116,90.3,8.9,28,44.28
260.9,200.6,864.5,761.5,100.5,78.3,8.6,28,32.4